{
  "resourceType": "Bundle",
  "id": "535e98aa-98b9-3f00-b2fb-227847090fa7",
  "meta": {
    "lastUpdated": "2022-12-07T08:50:00+01:00",
    "profile":  [
      "https://demis.rki.de/fhir/StructureDefinition/NotificationBundleDisease"
    ]
  },
  "identifier": {
    "system": "https://demis.rki.de/fhir/NamingSystem/NotificationBundleId",
    "value": "c56e7d18-cdf5-3601-b97c-1edafb2ae212"
  },
  "type": "document",
  "timestamp": "2022-12-07T08:50:00+01:00",
  "entry":  [
    {
      "fullUrl": "https://demis.rki.de/fhir/Composition/1a85d273-e199-3a3e-8001-2eb93900798b",
      "resource": {
        "resourceType": "Composition",
        "id": "1a85d273-e199-3a3e-8001-2eb93900798b",
        "meta": {
          "lastUpdated": "2022-12-07T08:50:00+01:00",
          "profile":  [
            "https://demis.rki.de/fhir/StructureDefinition/NotificationDiseaseBAND"
          ]
        },
        "identifier": {
          "system": "https://demis.rki.de/fhir/NamingSystem/NotificationId",
          "value": "07eebd38-0f25-4926-87fb-b3e339ab3d7e"
        },
        "status": "final",
        "type": {
          "coding":  [
            {
              "system": "http://loinc.org",
              "code": "34782-3",
              "display": "Infectious disease Note"
            }
          ]
        },
        "category":  [
          {
            "coding":  [
              {
                "system": "https://demis.rki.de/fhir/CodeSystem/notificationType",
                "code": "6.1_2",
                "display": "Meldung gemäß §6 Absatz 1, 2"
              }
            ]
          }
        ],
        "subject": {
          "reference": "Patient/ae2582e3-8376-3b7a-b4ae-4390b6a45ae8"
        },
        "date": "2022-12-07T00:00:00+01:00",
        "author":  [
          {
            "reference": "PractitionerRole/99b7f072-6b8a-3fc2-a7a6-c1aa0b28c14f"
          }
        ],
        "title": "Meldung gemäß §6 Absatz 1, 2 IfSG",
        "section":  [
          {
            "title": "Diagnose",
            "code": {
              "coding":  [
                {
                  "system": "https://demis.rki.de/fhir/CodeSystem/sectionCode",
                  "code": "diagnosis",
                  "display": "Diagnose"
                }
              ]
            },
            "entry":  [
              {
                "reference": "Condition/e9633360-0083-31fe-ac90-6735de3a4cc2"
              }
            ]
          },
          {
            "title": "Meldetatbestandsübergreifende klinische und epidemiologische Angaben",
            "code": {
              "coding":  [
                {
                  "system": "https://demis.rki.de/fhir/CodeSystem/sectionCode",
                  "code": "generalClinAndEpiInformation",
                  "display": "Meldetatbestandsübergreifende klinische und epidemiologische Angaben"
                }
              ]
            },
            "entry":  [
              {
                "reference": "QuestionnaireResponse/332fb5d4-5f53-3092-8c01-d4eb3e81cfd8"
              }
            ]
          },
          {
            "title": "Meldetatbestandsspezifische klinische und epidemiologische Angaben",
            "code": {
              "coding":  [
                {
                  "system": "https://demis.rki.de/fhir/CodeSystem/sectionCode",
                  "code": "specificClinAndEpiInformation",
                  "display": "Meldetatbestandsspezifische klinische und epidemiologische Angaben"
                }
              ]
            },
            "entry":  [
              {
                "reference": "QuestionnaireResponse/5b500d63-513f-3af2-9c7d-c5d23ee55a20"
              }
            ]
          }
        ]
      }
    },
    {
      "fullUrl": "https://demis.rki.de/fhir/Organization/caea6c7b-a29c-33a3-8f91-a0f78847f041",
      "resource": {
        "resourceType": "Organization",
        "id": "caea6c7b-a29c-33a3-8f91-a0f78847f041",
        "meta": {
          "profile":  [
            "https://demis.rki.de/fhir/StructureDefinition/NotifiedPersonFacility"
          ]
        },
        "name": "Sankt Gertrauden Krankenhaus (ganz anderer Standort)",
        "address":  [
          {
            "line":  [
              "Harztr. 11"
            ],
            "city": "Berlin",
            "postalCode": "12623",
            "country": "DE"
          }
        ],
        "contact":  [
          {
            "name": {
              "use": "official",
              "family": "Schüler",
              "given":  [
                "Andreas"
              ]
            }
          }
        ]
      }
    },
    {
      "fullUrl": "https://demis.rki.de/fhir/Patient/ae2582e3-8376-3b7a-b4ae-4390b6a45ae8",
      "resource": {
        "resourceType": "Patient",
        "id": "ae2582e3-8376-3b7a-b4ae-4390b6a45ae8",
        "meta": {
          "profile":  [
            "https://demis.rki.de/fhir/StructureDefinition/NotifiedPerson"
          ]
        },
        "name":  [
          {
            "use": "official",
            "family": "Jägersmann",
            "given":  [
              "Bertolt"
            ]
          }
        ],
        "telecom":  [
          {
            "system": "phone",
            "value": "030 123456789"
          },
          {
            "system": "email",
            "value": "jagen@domain.de"
          }
        ],
        "gender": "male",
        "birthDate": "1977-08-14",
        "address":  [
          {
            "extension":  [
              {
                "url": "https://demis.rki.de/fhir/StructureDefinition/AddressUse",
                "valueCoding": {
                  "system": "https://demis.rki.de/fhir/CodeSystem/addressUse",
                  "code": "current"
                }
              },
              {
                "url": "https://demis.rki.de/fhir/StructureDefinition/FacilityAddressNotifiedPerson",
                "valueReference": {
                  "reference": "Organization/caea6c7b-a29c-33a3-8f91-a0f78847f041"
                }
              }
            ]
          },
          {
            "extension":  [
              {
                "url": "https://demis.rki.de/fhir/StructureDefinition/AddressUse",
                "valueCoding": {
                  "system": "https://demis.rki.de/fhir/CodeSystem/addressUse",
                  "code": "primary"
                }
              }
            ],
            "line":  [
              "Krakower Str. 112"
            ],
            "city": "Berlin",
            "postalCode": "12863",
            "country": "DE"
          }
        ]
      }
    },
    {
      "fullUrl": "https://demis.rki.de/fhir/Condition/e9633360-0083-31fe-ac90-6735de3a4cc2",
      "resource": {
        "resourceType": "Condition",
        "id": "e9633360-0083-31fe-ac90-6735de3a4cc2",
        "meta": {
          "profile":  [
            "https://demis.rki.de/fhir/StructureDefinition/DiseaseBAND"
          ]
        },
        "verificationStatus": {
          "coding":  [
            {
              "system": "http://terminology.hl7.org/CodeSystem/condition-ver-status",
              "code": "confirmed"
            }
          ]
        },
        "code": {
          "coding":  [
            {
              "system": "https://demis.rki.de/fhir/CodeSystem/notificationDiseaseCategory",
              "code": "band",
              "display": "Milzbrand"
            }
          ]
        },
        "subject": {
          "reference": "Patient/ae2582e3-8376-3b7a-b4ae-4390b6a45ae8"
        },
        "onsetDateTime": "2022-12-05",
        "recordedDate": "2022-12-07",
        "evidence":  [
          {
            "code":  [
              {
                "coding":  [
                  {
                    "system": "http://snomed.info/sct",
                    "code": "95324001:{116676008=53788007}",
                    "display": "Hautläsion, vesikulös"
                  }
                ]
              }
            ]
          },
          {
            "code":  [
              {
                "coding":  [
                  {
                    "system": "http://snomed.info/sct",
                    "code": "416893007:{246075003=21927003}",
                    "display": "Milzbrandkarbunkel"
                  }
                ]
              }
            ]
          }
        ],
        "note":  [
          {
            "text": "Textueller Hinweis"
          }
        ]
      }
    },
    {
      "fullUrl": "https://demis.rki.de/fhir/Organization/431e89ce-3a44-4ec1-801c-0f988992e8fd",
      "resource": {
        "resourceType": "Organization",
        "id": "431e89ce-3a44-4ec1-801c-0f988992e8fd",
        "meta": {
          "profile":  [
            "https://demis.rki.de/fhir/StructureDefinition/NotifierFacility"
          ]
        },
        "identifier":  [
          {
            "system": "http://fhir.de/sid/arge-ik/iknr"
          }
        ],
        "type":  [
          {
            "coding":  [
              {
                "system": "https://demis.rki.de/fhir/CodeSystem/organizationType",
                "code": "hospital"
              }
            ]
          }
        ],
        "name": "Sankt Gertrauden Krankenhaus",
        "telecom":  [
          {
            "system": "phone",
            "value": "0309876543210",
            "use": "work"
          }
        ],
        "address":  [
          {
            "line":  [
              "Dingsweg 321"
            ],
            "city": "Berlin",
            "postalCode": "13055",
            "country": "DE"
          }
        ]
      }
    },
    {
      "fullUrl": "https://demis.rki.de/fhir/PractitionerRole/99b7f072-6b8a-3fc2-a7a6-c1aa0b28c14f",
      "resource": {
        "resourceType": "PractitionerRole",
        "id": "99b7f072-6b8a-3fc2-a7a6-c1aa0b28c14f",
        "meta": {
          "profile":  [
            "https://demis.rki.de/fhir/StructureDefinition/NotifierRole"
          ]
        },
        "organization": {
          "reference": "Organization/431e89ce-3a44-4ec1-801c-0f988992e8fd"
        }
      }
    },
    {
      "fullUrl": "https://demis.rki.de/fhir/Organization/379d2b03-85c1-4b14-aae3-cc2a5975a90e",
      "resource": {
        "resourceType": "Organization",
        "id": "379d2b03-85c1-4b14-aae3-cc2a5975a90e",
        "meta": {
          "profile":  [
            "http://hl7.org/fhir/StructureDefinition/Organization"
          ]
        },
        "type":  [
          {
            "coding":  [
              {
                "system": "https://demis.rki.de/fhir/CodeSystem/organizationType",
                "code": "hospitalLab"
              }
            ]
          }
        ],
        "name": "Sankt Gertrauden Krankenhaus - Krankenhauslabor",
        "telecom":  [
          {
            "system": "phone",
            "value": "0309876543211",
            "use": "work"
          }
        ],
        "address":  [
          {
            "line":  [
              "Dingsweg 321"
            ],
            "city": "Berlin",
            "postalCode": "13055",
            "country": "DE"
          }
        ]
      }
    },
    {
      "fullUrl": "https://demis.rki.de/fhir/Encounter/8bcdeaf7-50cb-33b4-990a-1cecda2e99f8",
      "resource": {
        "resourceType": "Encounter",
        "id": "8bcdeaf7-50cb-33b4-990a-1cecda2e99f8",
        "meta": {
          "profile":  [
            "https://demis.rki.de/fhir/StructureDefinition/Hospitalization"
          ]
        },
        "extension":  [
          {
            "url": "https://demis.rki.de/fhir/StructureDefinition/HospitalizationNote",
            "valueString": "Stabiler Zustand."
          }
        ],
        "status": "in-progress",
        "class": {
          "system": "http://terminology.hl7.org/CodeSystem/v3-ActCode",
          "code": "IMP",
          "display": "inpatient encounter"
        },
        "serviceType": {
          "coding":  [
            {
              "system": "https://demis.rki.de/fhir/CodeSystem/hospitalizationServiceType",
              "code": "0152",
              "display": "Schwerpunkt Infektionskrankheiten"
            }
          ]
        },
        "subject": {
          "reference": "Patient/ae2582e3-8376-3b7a-b4ae-4390b6a45ae8"
        },
        "period": {
          "start": "2022-12-07"
        },
        "serviceProvider": {
          "reference": "Organization/caea6c7b-a29c-33a3-8f91-a0f78847f041"
        }
      }
    },
    {
      "fullUrl": "https://demis.rki.de/fhir/QuestionnaireResponse/332fb5d4-5f53-3092-8c01-d4eb3e81cfd8",
      "resource": {
        "resourceType": "QuestionnaireResponse",
        "id": "332fb5d4-5f53-3092-8c01-d4eb3e81cfd8",
        "meta": {
          "profile":  [
            "https://demis.rki.de/fhir/StructureDefinition/DiseaseInformationCommon"
          ]
        },
        "questionnaire": "https://demis.rki.de/fhir/Questionnaire/DiseaseQuestionsCommon",
        "status": "completed",
        "subject": {
          "reference": "Patient/ae2582e3-8376-3b7a-b4ae-4390b6a45ae8"
        },
        "item":  [
          {
            "linkId": "isDead",
            "answer":  [
              {
                "valueCoding": {
                  "system": "https://demis.rki.de/fhir/CodeSystem/yesOrNoAnswer",
                  "code": "no",
                  "display": "Nein"
                }
              }
            ]
          },
          {
            "linkId": "militaryAffiliation",
            "answer":  [
              {
                "valueCoding": {
                  "system": "https://demis.rki.de/fhir/CodeSystem/militaryAffiliation",
                  "code": "noReferenceToBundeswehr",
                  "display": "Kein Bezug zur BW"
                }
              }
            ]
          },
          {
            "linkId": "labSpecimenTaken",
            "answer":  [
              {
                "valueCoding": {
                  "system": "https://demis.rki.de/fhir/CodeSystem/yesOrNoAnswer",
                  "code": "yes",
                  "display": "Ja"
                },
                "item":  [
                  {
                    "linkId": "labSpecimenLab",
                    "answer":  [
                      {
                        "valueReference": {
                          "reference": "Organization/379d2b03-85c1-4b14-aae3-cc2a5975a90e"
                        }
                      }
                    ]
                  }
                ]
              }
            ]
          },
          {
            "linkId": "hospitalized",
            "answer":  [
              {
                "valueCoding": {
                  "system": "https://demis.rki.de/fhir/CodeSystem/yesOrNoAnswer",
                  "code": "yes",
                  "display": "Ja"
                },
                "item":  [
                  {
                    "linkId": "hospitalizedGroup",
                    "item":  [
                      {
                        "linkId": "hospitalizedEncounter",
                        "answer":  [
                          {
                            "valueReference": {
                              "reference": "Encounter/8bcdeaf7-50cb-33b4-990a-1cecda2e99f8"
                            }
                          }
                        ]
                      }
                    ]
                  }
                ]
              }
            ]
          },
          {
            "linkId": "infectProtectFacility",
            "answer":  [
              {
                "valueCoding": {
                  "system": "https://demis.rki.de/fhir/CodeSystem/yesOrNoAnswer",
                  "code": "no",
                  "display": "Nein"
                }
              }
            ]
          },
          {
            "linkId": "placeExposure",
            "answer":  [
              {
                "valueCoding": {
                  "system": "https://demis.rki.de/fhir/CodeSystem/yesOrNoAnswer",
                  "code": "yes",
                  "display": "Ja"
                },
                "item":  [
                  {
                    "linkId": "placeExposureGroup",
                    "item":  [
                      {
                        "linkId": "placeExposureBegin",
                        "answer":  [
                          {
                            "valueDate": "2022-12-01"
                          }
                        ]
                      },
                      {
                        "linkId": "placeExposureEnd",
                        "answer":  [
                          {
                            "valueDate": "2022-12-05"
                          }
                        ]
                      },
                      {
                        "linkId": "placeExposureRegion",
                        "answer":  [
                          {
                            "valueCoding": {
                              "system": "https://demis.rki.de/fhir/CodeSystem/geographicRegion",
                              "code": "13000009",
                              "display": "Bayern"
                            }
                          }
                        ]
                      },
                      {
                        "linkId": "placeExposureHint",
                        "answer":  [
                          {
                            "valueString": "Bayerischer Wald"
                          }
                        ]
                      }
                    ]
                  }
                ]
              }
            ]
          },
          {
            "linkId": "organDonation",
            "answer":  [
              {
                "valueCoding": {
                  "system": "https://demis.rki.de/fhir/CodeSystem/yesOrNoAnswer",
                  "code": "yes",
                  "display": "Ja"
                }
              }
            ]
          },
          {
            "linkId": "additionalInformation",
            "answer":  [
              {
                "valueString": "Die betroffene Person ist Jäger."
              }
            ]
          }
        ]
      }
    },
    {
      "fullUrl": "https://demis.rki.de/fhir/QuestionnaireResponse/5b500d63-513f-3af2-9c7d-c5d23ee55a20",
      "resource": {
        "resourceType": "QuestionnaireResponse",
        "id": "5b500d63-513f-3af2-9c7d-c5d23ee55a20",
        "meta": {
          "profile":  [
            "https://demis.rki.de/fhir/StructureDefinition/DiseaseInformationBAND"
          ]
        },
        "questionnaire": "https://demis.rki.de/fhir/Questionnaire/DiseaseQuestionsBAND",
        "status": "completed",
        "subject": {
          "reference": "Patient/ae2582e3-8376-3b7a-b4ae-4390b6a45ae8"
        },
        "item":  [
          {
            "linkId": "form",
            "answer":  [
              {
                "valueCoding": {
                  "system": "http://snomed.info/sct",
                  "code": "84980006",
                  "display": "Hautmilzbrand"
                }
              }
            ]
          },
          {
            "linkId": "immunization",
            "answer":  [
              {
                "valueCoding": {
                  "system": "https://demis.rki.de/fhir/CodeSystem/yesOrNoAnswer",
                  "code": "no",
                  "display": "Nein"
                }
              }
            ]
          },
          {
            "linkId": "outbreak",
            "answer":  [
              {
                "valueCoding": {
                  "system": "https://demis.rki.de/fhir/CodeSystem/yesOrNoAnswer",
                  "code": "no",
                  "display": "Nein"
                }
              }
            ]
          }
        ]
      }
    }
  ]
}