{
  "resourceType": "Bundle",
  "meta": {
    "profile":  [
      "https://demis.rki.de/fhir/StructureDefinition/NotificationBundleLaboratory"
    ]
  },
  "identifier": {
    "system": "https://demis.rki.de/fhir/NamingSystem/NotificationBundleId",
    "value": "0de84a15-3f79-439a-a33c-a5989927cf7d"
  },
  "type": "document",
  "timestamp": "2020-05-10T05:37:44.000+01:00",
  "entry":  [
    {
      "fullUrl": "https://demis.rki.de/fhir/Composition/a194b5c3-a3c5-4ceb-9087-d7fd87e1ec4e",
      "resource": {
        "resourceType": "Composition",
        "id": "a194b5c3-a3c5-4ceb-9087-d7fd87e1ec4e",
        "meta": {
          "profile":  [
            "https://demis.rki.de/fhir/StructureDefinition/NotificationLaboratory"
          ]
        },
        "identifier": {
          "system": "https://demis.rki.de/fhir/NamingSystem/NotificationId",
          "value": "bc6a490d-7221-5dbf-8d00-0617359b78fb"
        },
        "status": "final",
        "type": {
          "coding":  [
            {
              "system": "http://loinc.org",
              "code": "34782-3",
              "display": "Infectious disease Note"
            }
          ]
        },
        "category":  [
          {
            "coding":  [
              {
                "system": "http://loinc.org",
                "code": "11502-2",
                "display": "Laboratory report"
              }
            ]
          }
        ],
        "subject": {
          "reference": "Patient/61ebe359-bfdc-4613-8bf2-c5e300945f0n17"
        },
        "date": "2020-04-16",
        "author":  [
          {
            "reference": "PractitionerRole/61ebe359-bfdc-4613-8bf2-c5e300945f0n18"
          }
        ],
        "title": "SARS-CoV-2-Erregernachweismeldung",
        "relatesTo":  [
          {
            "code": "appends",
            "targetReference": {
              "type": "Composition",
              "identifier": {
                "system": "https://demis.rki.de/fhir/NamingSystem/NotificationId",
                "value": "bc6a490d-7221-5dbf-8d00-0617359b78fb"
              }
            }
          }
        ],
        "section":  [
          {
            "code": {
              "coding":  [
                {
                  "system": "http://loinc.org",
                  "code": "11502-2",
                  "display": "Laboratory report"
                }
              ]
            },
            "entry":  [
              {
                "reference": "DiagnosticReport/61ebe359-bfdc-4613-8bf2-c5e300945f0n19"
              }
            ]
          }
        ]
      }
    },
    {
      "fullUrl": "https://demis.rki.de/fhir/PractitionerRole/61ebe359-bfdc-4613-8bf2-c5e300945f0n18",
      "resource": {
        "resourceType": "PractitionerRole",
        "id": "61ebe359-bfdc-4613-8bf2-c5e300945f0n18",
        "meta": {
          "profile":  [
            "https://demis.rki.de/fhir/StructureDefinition/NotifierRole"
          ]
        },
        "practitioner": {
          "reference": "Practitioner/61abc359-bfdc-4613-8bf2-c5e300945f0n18"
        }
      }
    },
    {
      "fullUrl": "https://demis.rki.de/fhir/Practitioner/61abc359-bfdc-4613-8bf2-c5e300945f0n18",
      "resource": {
        "resourceType": "Practitioner",
        "id": "61ebe359-bfdc-4613-8bf2-c5e300945f0n18",
        "meta": {
          "profile":  [
            "https://demis.rki.de/fhir/StructureDefinition/Notifier"
          ]
        },
        "extension":  [
          {
            "url": "https://demis.rki.de/fhir/StructureDefinition/Salutation",
            "valueCoding": {
              "system": "https://demis.rki.de/fhir/CodeSystem/salutation",
              "code": "mrs"
            }
          }
        ],
        "name":  [
          {
            "use": "official",
            "family": "Bonheure",
            "given":  [
              "Julie"
            ]
          }
        ],
        "telecom":  [
          {
            "extension":  [
              {
                "url": "https://demis.rki.de/fhir/StructureDefinition/Comment",
                "valueString": "Ab 14 Uhr"
              }
            ],
            "system": "phone",
            "value": "+49 (0)12345 - 123456",
            "use": "work"
          }
        ]
      }
    },
    {
      "fullUrl": "https://demis.rki.de/fhir/Patient/61ebe359-bfdc-4613-8bf2-c5e300945f0n17",
      "resource": {
        "resourceType": "Patient",
        "id": "61ebe359-bfdc-4613-8bf2-c5e300945f0n17",
        "meta": {
          "profile":  [
            "https://demis.rki.de/fhir/StructureDefinition/NotifiedPerson"
          ]
        },
        "name":  [
          {
            "use": "official",
            "family": "Müller",
            "given":  [
              "Karl-Heinz"
            ]
          }
        ],
        "telecom":  [
          {
            "extension":  [
              {
                "url": "https://demis.rki.de/fhir/StructureDefinition/Comment",
                "valueString": "Ab 14 Uhr"
              }
            ],
            "system": "phone",
            "value": "+49 (0)12345 - 123456",
            "use": "work"
          }
        ],
        "gender": "male",
        "birthDate": "1974-12-25",
        "address":  [
          {
            "extension":  [
              {
                "url": "https://demis.rki.de/fhir/StructureDefinition/AddressUse",
                "valueCoding": {
                  "system": "https://demis.rki.de/fhir/CodeSystem/addressUse",
                  "code": "ordinary"
                }
              },
              {
                "url": "https://demis.rki.de/fhir/StructureDefinition/FacilityAddressNotifiedPerson",
                "valueReference": {
                  "reference": "Organization/98cda07d-1fa7-47f6-ad79-e66de48d6078"
                }
              }
            ]
          }
        ],
        "contact":  [
          {
            "relationship":  [
              {
                "coding":  [
                  {
                    "system": "http://terminology.hl7.org/CodeSystem/v2-0131",
                    "code": "E"
                  }
                ]
              }
            ],
            "name": {
              "use": "official",
              "family": "Meier",
              "given":  [
                "Joachim"
              ]
            }
          }
        ]
      }
    },
    {
      "fullUrl": "https://demis.rki.de/fhir/DiagnosticReport/61ebe359-bfdc-4613-8bf2-c5e300945f0n19",
      "resource": {
        "resourceType": "DiagnosticReport",
        "id": "61ebe359-bfdc-4613-8bf2-c5e300945f0n19",
        "meta": {
          "profile":  [
            "https://demis.rki.de/fhir/StructureDefinition/LaboratoryReportCVDP"
          ]
        },
        "basedOn":  [
          {
            "type": "ServiceRequest",
            "identifier": {
              "system": "https://demis.rki.de/fhir/NamingSystem/ServiceRequestId",
              "value": "2020-0003456"
            }
          }
        ],
        "status": "final",
        "code": {
          "coding":  [
            {
              "system": "https://demis.rki.de/fhir/CodeSystem/notificationCategory",
              "code": "cvdp",
              "display": "Severe-Acute-Respiratory-Syndrome-Coronavirus-2 (SARS-CoV-2)"
            }
          ]
        },
        "subject": {
          "reference": "Patient/61ebe359-bfdc-4613-8bf2-c5e300945f0n17"
        },
        "issued": "2021-03-04T00:45:33+01:00",
        "result":  [
          {
            "reference": "Observation/d3539a4c-9093-467a-a3e8-050594afbd59"
          }
        ],
        "conclusionCode":  [
          {
            "coding":  [
              {
                "system": "https://demis.rki.de/fhir/CodeSystem/conclusionCode",
                "code": "pathogenDetected"
              }
            ]
          }
        ]
      }
    },
    {
      "fullUrl": "https://demis.rki.de/fhir/Organization/98cda07d-1fa7-47f6-ad79-e66de48d6078",
      "resource": {
        "resourceType": "Organization",
        "id": "98cda07d-1fa7-47f6-ad79-e66de48d6078",
        "meta": {
          "profile":  [
            "https://demis.rki.de/fhir/StructureDefinition/NotifiedPersonFacility"
          ]
        },
        "type":  [
          {
            "coding":  [
              {
                "system": "https://demis.rki.de/fhir/CodeSystem/organizationType",
                "code": "hospital"
              }
            ]
          }
        ],
        "name": "Krankenhaus am See",
        "telecom":  [
          {
            "system": "phone",
            "value": "+49 (0)12345 - 123456",
            "use": "work"
          }
        ],
        "address":  [
          {
            "line":  [
              "Kurzer Weg 15"
            ],
            "city": "Berlin",
            "state": "DE-BE",
            "postalCode": "10117",
            "country": "DE"
          }
        ]
      }
    },
    {
      "fullUrl": "https://demis.rki.de/fhir/Observation/d3539a4c-9093-467a-a3e8-050594afbd59",
      "resource": {
        "resourceType": "Observation",
        "id": "d3539a4c-9093-467a-a3e8-050594afbd59",
        "meta": {
          "profile":  [
            "https://demis.rki.de/fhir/StructureDefinition/PathogenDetectionCVDP"
          ]
        },
        "status": "final",
        "category":  [
          {
            "coding":  [
              {
                "system": "http://terminology.hl7.org/CodeSystem/observation-category",
                "code": "laboratory"
              }
            ]
          }
        ],
        "code": {
          "coding":  [
            {
              "system": "http://loinc.org",
              "code": "96741-4",
              "display": "SARS-CoV-2 (COVID-19) variant Sequencing Nom (Specimen)"
            }
          ]
        },
        "subject": {
          "reference": "Patient/61ebe359-bfdc-4613-8bf2-c5e300945f0n17"
        },
        "valueString": "#B.1.1.7",
        "interpretation":  [
          {
            "coding":  [
              {
                "system": "http://terminology.hl7.org/CodeSystem/v3-ObservationInterpretation",
                "code": "POS"
              }
            ]
          }
        ],
        "note":  [
          {
            "text": "Ich bin ein optionaler beschreibender Text ..."
          }
        ],
        "method": {
          "coding":  [
            {
              "system": "http://snomed.info/sct",
              "code": "1304162005",
              "display": "Nucleic acid sequencing technique (qualifier value)"
            }
          ]
        },
        "specimen": {
          "reference": "Specimen/47d61bca-9c53-4422-bb33-3621da084bf4"
        }
      }
    },
    {
      "fullUrl": "https://demis.rki.de/fhir/Specimen/47d61bca-9c53-4422-bb33-3621da084bf4",
      "resource": {
        "resourceType": "Specimen",
        "id": "47d61bca-9c53-4422-bb33-3621da084bf4",
        "meta": {
          "profile":  [
            "https://demis.rki.de/fhir/StructureDefinition/SpecimenCVDP"
          ]
        },
        "type": {
          "coding":  [
            {
              "system": "http://snomed.info/sct",
              "code": "309164002",
              "display": "Upper respiratory swab sample (specimen)"
            }
          ]
        },
        "subject": {
          "reference": "Patient/61ebe359-bfdc-4613-8bf2-c5e300945f0n17"
        },
        "receivedTime": "2020-09-27T20:01:38+02:00",
        "collection": {
          "collector": {
            "reference": "PractitionerRole/xyz2f5-8384-4191-916b-10150c780453"
          },
          "collectedDateTime": "2020-08-17T10:10:00+02:00"
        },
        "processing":  [
          {
            "extension":  [
              {
                "url": "https://demis.rki.de/fhir/StructureDefinition/TransactionID",
                "valueString": "IGS-10001-CVDP-be8131da-9024-41a4-a53c-3ce0d6f6fe37"
              }
            ],
            "timeDateTime": "2020-08-18T08:10:00+02:00"
          }
        ],
        "note":  [
          {
            "text": "Die Probe gehört zu einem Ausbruch."
          }
        ]
      }
    },
    {
      "fullUrl": "https://demis.rki.de/fhir/PractitionerRole/xyz2f5-8384-4191-916b-10150c780453",
      "resource": {
        "resourceType": "PractitionerRole",
        "id": "xyz2f5-8384-4191-916b-10150c780453",
        "meta": {
          "profile":  [
            "https://demis.rki.de/fhir/StructureDefinition/SubmittingRole"
          ]
        },
        "practitioner": {
          "reference": "Practitioner/42cdf5-8384-4191-916b-10150c780453"
        }
      }
    },
    {
      "fullUrl": "https://demis.rki.de/fhir/Practitioner/42cdf5-8384-4191-916b-10150c780453",
      "resource": {
        "resourceType": "Practitioner",
        "id": "42cdf5-8384-4191-916b-10150c780453",
        "meta": {
          "profile":  [
            "https://demis.rki.de/fhir/StructureDefinition/SubmittingPerson"
          ]
        },
        "name":  [
          {
            "use": "official",
            "family": "Mantle",
            "given":  [
              "Karl-Heinz"
            ]
          }
        ],
        "telecom":  [
          {
            "system": "phone",
            "value": "+49 (0)12345 - 123456",
            "use": "work"
          },
          {
            "system": "phone",
            "value": "+49 (0)12345 - 123567",
            "use": "home"
          }
        ],
        "address":  [
          {
            "use": "home",
            "line":  [
              "Erster Weg 1"
            ],
            "city": "Berlin",
            "state": "DE-BE",
            "postalCode": "10117",
            "country": "DE"
          }
        ]
      }
    }
  ]
}